 Z=  67 A= 165  D1M-QRPA-Inter
 E[MeV]  fQRPA[mb/MeV]
    0.100   2.895E-03
    0.200   9.611E-03
    0.300   1.774E-02
    0.400   2.624E-02
    0.500   3.477E-02
    0.600   4.331E-02
    0.700   5.191E-02
    0.800   6.064E-02
    0.900   6.953E-02
    1.000   7.859E-02
    1.100   8.781E-02
    1.200   9.718E-02
    1.300   1.067E-01
    1.400   1.163E-01
    1.500   1.261E-01
    1.600   1.361E-01
    1.700   1.462E-01
    1.800   1.564E-01
    1.900   1.669E-01
    2.000   1.776E-01
    2.100   1.885E-01
    2.200   1.997E-01
    2.300   2.113E-01
    2.400   2.232E-01
    2.500   2.356E-01
    2.600   2.484E-01
    2.700   2.618E-01
    2.800   2.757E-01
    2.900   2.901E-01
    3.000   3.053E-01
    3.100   3.211E-01
    3.200   3.378E-01
    3.300   3.554E-01
    3.400   3.740E-01
    3.500   3.937E-01
    3.600   4.146E-01
    3.700   4.369E-01
    3.800   4.606E-01
    3.900   4.857E-01
    4.000   5.125E-01
    4.100   5.409E-01
    4.200   5.710E-01
    4.300   6.030E-01
    4.400   6.369E-01
    4.500   6.729E-01
    4.600   7.109E-01
    4.700   7.511E-01
    4.800   7.935E-01
    4.900   8.381E-01
    5.000   8.850E-01
    5.100   9.341E-01
    5.200   9.854E-01
    5.300   1.039E+00
    5.400   1.095E+00
    5.500   1.153E+00
    5.600   1.213E+00
    5.700   1.275E+00
    5.800   1.341E+00
    5.900   1.409E+00
    6.000   1.480E+00
    6.100   1.555E+00
    6.200   1.634E+00
    6.300   1.716E+00
    6.400   1.804E+00
    6.500   1.896E+00
    6.600   1.993E+00
    6.700   2.096E+00
    6.800   2.204E+00
    6.900   2.318E+00
    7.000   2.438E+00
    7.100   2.564E+00
    7.200   2.695E+00
    7.300   2.833E+00
    7.400   2.977E+00
    7.500   3.127E+00
    7.600   3.282E+00
    7.700   3.443E+00
    7.800   3.610E+00
    7.900   3.782E+00
    8.000   3.959E+00
    8.100   4.143E+00
    8.200   4.334E+00
    8.300   4.532E+00
    8.400   4.739E+00
    8.500   4.955E+00
    8.600   5.182E+00
    8.700   5.421E+00
    8.800   5.675E+00
    8.900   5.945E+00
    9.000   6.233E+00
    9.100   6.542E+00
    9.200   6.874E+00
    9.300   7.233E+00
    9.400   7.622E+00
    9.500   8.044E+00
    9.600   8.503E+00
    9.700   9.003E+00
    9.800   9.548E+00
    9.900   1.014E+01
   10.000   1.078E+01
   10.100   1.148E+01
   10.200   1.224E+01
   10.300   1.305E+01
   10.400   1.393E+01
   10.500   1.486E+01
   10.600   1.585E+01
   10.700   1.689E+01
   10.800   1.797E+01
   10.900   1.907E+01
   11.000   2.018E+01
   11.100   2.128E+01
   11.200   2.234E+01
   11.300   2.333E+01
   11.400   2.422E+01
   11.500   2.498E+01
   11.600   2.560E+01
   11.700   2.606E+01
   11.800   2.635E+01
   11.900   2.649E+01
   12.000   2.650E+01
   12.100   2.640E+01
   12.200   2.622E+01
   12.300   2.599E+01
   12.400   2.573E+01
   12.500   2.548E+01
   12.600   2.525E+01
   12.700   2.506E+01
   12.800   2.491E+01
   12.900   2.482E+01
   13.000   2.478E+01
   13.100   2.480E+01
   13.200   2.486E+01
   13.300   2.496E+01
   13.400   2.510E+01
   13.500   2.525E+01
   13.600   2.542E+01
   13.700   2.558E+01
   13.800   2.574E+01
   13.900   2.587E+01
   14.000   2.597E+01
   14.100   2.603E+01
   14.200   2.606E+01
   14.300   2.606E+01
   14.400   2.602E+01
   14.500   2.596E+01
   14.600   2.587E+01
   14.700   2.577E+01
   14.800   2.566E+01
   14.900   2.554E+01
   15.000   2.542E+01
   15.100   2.530E+01
   15.200   2.517E+01
   15.300   2.503E+01
   15.400   2.486E+01
   15.500   2.466E+01
   15.600   2.442E+01
   15.700   2.414E+01
   15.800   2.381E+01
   15.900   2.344E+01
   16.000   2.302E+01
   16.100   2.257E+01
   16.200   2.209E+01
   16.300   2.158E+01
   16.400   2.106E+01
   16.500   2.053E+01
   16.600   1.999E+01
   16.700   1.946E+01
   16.800   1.893E+01
   16.900   1.840E+01
   17.000   1.789E+01
   17.100   1.738E+01
   17.200   1.687E+01
   17.300   1.637E+01
   17.400   1.588E+01
   17.500   1.540E+01
   17.600   1.492E+01
   17.700   1.444E+01
   17.800   1.397E+01
   17.900   1.350E+01
   18.000   1.304E+01
   18.100   1.259E+01
   18.200   1.214E+01
   18.300   1.170E+01
   18.400   1.127E+01
   18.500   1.084E+01
   18.600   1.042E+01
   18.700   1.002E+01
   18.800   9.624E+00
   18.900   9.244E+00
   19.000   8.878E+00
   19.100   8.526E+00
   19.200   8.189E+00
   19.300   7.866E+00
   19.400   7.559E+00
   19.500   7.265E+00
   19.600   6.986E+00
   19.700   6.719E+00
   19.800   6.465E+00
   19.900   6.223E+00
   20.000   5.991E+00
   20.100   5.770E+00
   20.200   5.558E+00
   20.300   5.355E+00
   20.400   5.161E+00
   20.500   4.974E+00
   20.600   4.794E+00
   20.700   4.622E+00
   20.800   4.456E+00
   20.900   4.298E+00
   21.000   4.146E+00
   21.100   4.000E+00
   21.200   3.862E+00
   21.300   3.730E+00
   21.400   3.605E+00
   21.500   3.486E+00
   21.600   3.373E+00
   21.700   3.266E+00
   21.800   3.165E+00
   21.900   3.069E+00
   22.000   2.978E+00
   22.100   2.891E+00
   22.200   2.809E+00
   22.300   2.732E+00
   22.400   2.658E+00
   22.500   2.587E+00
   22.600   2.520E+00
   22.700   2.456E+00
   22.800   2.395E+00
   22.900   2.337E+00
   23.000   2.281E+00
   23.100   2.228E+00
   23.200   2.176E+00
   23.300   2.127E+00
   23.400   2.080E+00
   23.500   2.035E+00
   23.600   1.992E+00
   23.700   1.950E+00
   23.800   1.910E+00
   23.900   1.871E+00
   24.000   1.833E+00
   24.100   1.797E+00
   24.200   1.762E+00
   24.300   1.729E+00
   24.400   1.696E+00
   24.500   1.665E+00
   24.600   1.634E+00
   24.700   1.605E+00
   24.800   1.576E+00
   24.900   1.548E+00
   25.000   1.522E+00
   25.100   1.496E+00
   25.200   1.470E+00
   25.300   1.446E+00
   25.400   1.422E+00
   25.500   1.399E+00
   25.600   1.376E+00
   25.700   1.354E+00
   25.800   1.333E+00
   25.900   1.312E+00
   26.000   1.292E+00
   26.100   1.273E+00
   26.200   1.253E+00
   26.300   1.235E+00
   26.400   1.217E+00
   26.500   1.199E+00
   26.600   1.182E+00
   26.700   1.165E+00
   26.800   1.148E+00
   26.900   1.132E+00
   27.000   1.117E+00
   27.100   1.101E+00
   27.200   1.086E+00
   27.300   1.072E+00
   27.400   1.057E+00
   27.500   1.043E+00
   27.600   1.030E+00
   27.700   1.016E+00
   27.800   1.003E+00
   27.900   9.905E-01
   28.000   9.780E-01
   28.100   9.657E-01
   28.200   9.537E-01
   28.300   9.420E-01
   28.400   9.305E-01
   28.500   9.192E-01
   28.600   9.082E-01
   28.700   8.973E-01
   28.800   8.867E-01
   28.900   8.763E-01
   29.000   8.661E-01
   29.100   8.561E-01
   29.200   8.463E-01
   29.300   8.367E-01
   29.400   8.273E-01
   29.500   8.180E-01
   29.600   8.089E-01
   29.700   8.000E-01
   29.800   7.912E-01
   29.900   7.826E-01
   30.000   7.742E-01
 
